[
    {
        "resourceType": "Bundle",
        "id": "7c2721aa-a676-4d48-a8ee-e8b8654934a0",
        "meta": {
            "lastUpdated": "2021-05-13T12:22:04.841+01:00"
        },
        "type": "collection",
        "entry": [
            {
                "fullUrl": "patient-ghij",
                "request": {
                    "method": "PUT",
                    "url": "Patient/patient-ghij"
                },
                "meta": {
                    "lastUpdated": "2021-03-23T22:13:45.903+00:00"
                },
                "resource": {
                    "active": true,
                    "id": "patient-ghij",
                    "gender": "female",
                    "identifier": [
                        {
                            "system": "urn:oid:2.16.840.1.113883.2.4.6.3",
                            "use": "usual",
                            "value": "738472983"
                        },
                        {
                            "system": "urn:oid:2.16.840.1.113883.2.4.6.3",
                            "use": "usual"
                        },
                        {
                            "type": {
                                "coding": [
                                    {
                                        "system": "http://terminology.hl7.org/CodeSystem/v2-0203",
                                        "code": "MR",
                                        "display": "Medical record number"
                                    }
                                ],
                                "text": "MR"
                            },
                            "value": "82223",
                            "assigner": {
                                "reference": "Organization/AssigningAuthority"
                            }
                        }
                    ],
                    "name": [
                        {
                            "family": "LastName",
                            "given": [
                                "first",
                                "middle"
                            ]
                        }
                    ],
                    "resourceType": "Patient"
                }
            },
            {
                "fullUrl": "encounter3",
                "resource": {
                    "resourceType": "Encounter",
                    "id": "encounter3",
                    "status": "finished",
                    "class": {
                        "system": "http://terminology.hl7.org/CodeSystem/v3-ActCode",
                        "code": "OBSENC",
                        "display": "observation encounter"
                    },
                    "subject": {
                        "reference": "Patient/patient-ghij"
                    },
                    "location": [
                        {
                            "location": {
                                "reference": "Location/somelocation-A"
                            }
                        }
                    ]
                }
            }
        ]
    },
    {
        "id": "9a0db1b9-5850-415d-a2af-77",
        "resourceType": "Bundle",
        "type": "collection",
        "entry": [
            {
                "fullUrl": "urn:uuid:Patient/49679a99-3d7c-4491-a184-dd36598c4162",
                "resource": {
                    "resourceType": "Patient",
                    "id": "49679a99-3d7c-4491-a184-dd36598c4162",
                    "identifier": [
                        {
                            "type": {
                                "coding": [
                                    {
                                        "system": "http://terminology.hl7.org/CodeSystem/v2-0203",
                                        "code": "MR",
                                        "display": "Medical record number"
                                    }
                                ],
                                "text": "MR"
                            },
                            "value": "82223",
                            "assigner": {
                                "reference": "Organization/AssigningAuthority"
                            }
                        }
                    ],
                    "name": [
                        {
                            "family": "TEST",
                            "given": [
                                "PATIENT"
                            ]
                        }
                    ],
                    "gender": "female",
                    "birthDate": "2002-03-03"
                }
            },
            {
                "fullUrl": "urn:uuid:Organization/AssigningAuthority",
                "resource": {
                    "resourceType": "Organization",
                    "id": "AssigningAuthority",
                    "name": "Assigning Authority"
                }
            },
            {
                "fullUrl": "urn:uuid:Encounter/1c9259d4-8f32-4af4-85c3-9c568849bb01",
                "resource": {
                    "resourceType": "Encounter",
                    "id": "1c9259d4-8f32-4af4-85c3-9c568849bb01",
                    "status": "unknown",
                    "class": {
                        "code": "R"
                    },
                    "subject": {
                        "reference": "Patient/49679a99-3d7c-4491-a184-dd36598c4162"
                    },
                    "length": {
                        "unit": "Minutes"
                    }
                }
            },
            {
                "fullUrl": "urn:uuid:Immunization/3dd8cd7f-9fa6-4e4f-b77a-3d9f4ae10083",
                "resource": {
                    "resourceType": "Immunization",
                    "id": "3dd8cd7f-9fa6-4e4f-b77a-3d9f4ae10083",
                    "identifier": [
                        {
                            "value": "4242546"
                        }
                    ],
                    "status": "completed",
                    "vaccineCode": {
                        "coding": [
                            {
                                "system": "http://hl7.org/fhir/sid/cvx",
                                "code": "48",
                                "display": "HPV, quadrivalent"
                            }
                        ],
                        "text": "HPV, quadrivalent"
                    },
                    "patient": {
                        "reference": "Patient/49679a99-3d7c-4491-a184-dd36598c4162"
                    },
                    "encounter": {
                        "reference": "Encounter/1c9259d4-8f32-4af4-85c3-9c568849bb01"
                    },
                    "occurrenceDateTime": "2014-07-01T04:10:38+08:00",
                    "primarySource": true,
                    "reportOrigin": {
                        "coding": [
                            {
                                "code": "00",
                                "display": "New Immunization"
                            }
                        ],
                        "text": "New Immunization"
                    },
                    "manufacturer": {
                        "reference": "Organization/b53e6462-da5a-4aa7-be93-c7c5c1a27cc7"
                    },
                    "lotNumber": "L987",
                    "site": {
                        "coding": [
                            {
                                "code": "LA",
                                "display": "Leftarm"
                            }
                        ],
                        "text": "Leftarm"
                    },
                    "route": {
                        "coding": [
                            {
                                "code": "C28161",
                                "display": "Intramuscular"
                            }
                        ],
                        "text": "Intramuscular"
                    },
                    "performer": [
                        {
                            "function": {
                                "coding": [
                                    {
                                        "system": "http://terminology.hl7.org/CodeSystem/v2-0443",
                                        "code": "AP"
                                    }
                                ],
                                "text": "Administering Provide"
                            },
                            "actor": {
                                "reference": "Practitioner/3a201740-ac7f-4adb-aa47-96e2c2a2e5fd"
                            }
                        }
                    ],
                    "programEligibility": [
                        {
                            "coding": [
                                {
                                    "code": "V01"
                                }
                            ],
                            "text": "Not VFC"
                        }
                    ],
                    "fundingSource": {
                        "coding": [
                            {
                                "code": "VXC2"
                            }
                        ],
                        "text": "STATE FUNDS"
                    }
                }
            },
            {
                "fullUrl": "urn:uuid:Practitioner/3a201740-ac7f-4adb-aa47-96e2c2a2e5fd",
                "resource": {
                    "resourceType": "Practitioner",
                    "id": "3a201740-ac7f-4adb-aa47-96e2c2a2e5fd",
                    "identifier": [
                        {
                            "value": "NPI001"
                        }
                    ],
                    "name": [
                        {
                            "text": "ClinicianFirstName LastName",
                            "family": "LastName",
                            "given": [
                                "ClinicianFirstName"
                            ]
                        }
                    ]
                }
            },
            {
                "fullUrl": "urn:uuid:Organization/b53e6462-da5a-4aa7-be93-c7c5c1a27cc7",
                "resource": {
                    "resourceType": "Organization",
                    "id": "b53e6462-da5a-4aa7-be93-c7c5c1a27cc7",
                    "identifier": [
                        {
                            "value": "MSD"
                        }
                    ],
                    "name": "Merck"
                }
            }
        ]
    }
]